<Bundle xmlns="http://hl7.org/fhir">
   <id value="example-rec-11-benzo-trigger-with-opioid"/>
   <type value="transaction"/>
   <entry>
      <fullUrl value="http://measure.eval.kanvix.com/cqf-ruler/baseDstu3/Patient/example-rec-11-benzo-trigger-with-opioid"/>
      <resource>
          <Patient xmlns="http://hl7.org/fhir">
             <id value="example-rec-11-benzo-trigger-with-opioid"/>
             <name>
                 <family value="example-rec-10"/>
                 <given value="benzo-trigger-with-opioid"/>
             </name>
             <gender value="female"/>
             <birthDate value="1982-01-07"/>
          </Patient>
      </resource>
      <request>
         <method value="PUT"/>
         <url value="Patient/example-rec-11-benzo-trigger-with-opioid"/>
      </request>
   </entry>
   <entry>
      <fullUrl value="http://measure.eval.kanvix.com/cqf-ruler/baseDstu3/Encounter/example-rec-11-benzo-trigger-with-opioid-prefetch"/>
      <resource>
          <Encounter xmlns="http://hl7.org/fhir">
             <id value="example-rec-11-benzo-trigger-with-opioid-prefetch"/>
             <status value="finished"/>
             <class>
                 <system value="http://terminology.hl7.org/CodeSystem/v3-ActCode"/>
                 <code value="AMB"/>
                 <display value="ambulatory"/>
             </class>
             <subject>
                <reference value="Patient/example-rec-11-benzo-trigger-with-opioid"/>
             </subject>
             <period>
                <extension url="http://hl7.org/fhir/StructureDefinition/cqf-expression">
                   <valueExpression>
                      <language value="text/cql"/>
                      <expression value="FHIR.Period { start: FHIR.dateTime { value: Today() - 4 weeks }, end: FHIR.dateTime { value: Today() - 4 weeks } }"/>
                   </valueExpression>
                </extension>
             </period>
          </Encounter>
      </resource>
      <request>
         <method value="PUT"/>
         <url value="Encounter/example-rec-11-benzo-trigger-with-opioid-prefetch"/>
      </request>
   </entry>
   <entry>
      <fullUrl value="http://measure.eval.kanvix.com/cqf-ruler/baseDstu3/MedicationRequest/example-rec-11-benzo-trigger-with-opioid-prefetch"/>
      <resource>
          <MedicationRequest xmlns="http://hl7.org/fhir">
             <id value="example-rec-11-benzo-trigger-with-opioid-prefetch"/>
             <status value="active"/>
             <intent value="order"/>
             <category>
                <coding>
                   <code value="outpatient"/>
                </coding>
             </category>
             <medicationCodeableConcept>
                <coding>
                   <system value="http://www.nlm.nih.gov/research/umls/rxnorm"/>
                   <code value="1049502"/>
                   <display value="oxyCODONE HCl 10 MG 12HR Extended Release Oral Tablet"/>
                </coding>
             </medicationCodeableConcept>
             <subject>
                <reference value="Patient/example-rec-11-benzo-trigger-with-opioid"/>
             </subject>
             <encounter>
                <reference value="Encounter/example-rec-11-benzo-trigger-with-opioid-prefetch"/>
             </encounter>
             <authoredOn>
                <extension url="http://hl7.org/fhir/StructureDefinition/cqf-expression">
                      <valueExpression>
                          <language value="text/cql"/>
                          <expression value="Today() - 4 weeks"/>
                      </valueExpression>
                  </extension>
             </authoredOn>
             <dosageInstruction>
                <timing>
                   <repeat>
                      <frequency value="1"/>
                      <period value="1.0"/>
                      <periodUnit value="d"/>
                   </repeat>
                </timing>
                <asNeededBoolean value="false"/>
                <doseAndRate>
                    <doseQuantity>
                       <value value="1.0"/>
                       <unit value="tablet"/>
                    </doseQuantity>
                </doseAndRate>
             </dosageInstruction>
             <dispenseRequest>
                <validityPeriod>
                   <extension url="http://hl7.org/fhir/StructureDefinition/cqf-expression">
                      <valueExpression>
                          <language value="text/cql"/>
                          <expression value="FHIR.Period { start: FHIR.dateTime { value: Today() - 4 weeks }, end: FHIR.dateTime { value: Today() + 3 months } }"/>
                      </valueExpression>
                  </extension>
                </validityPeriod>
                <numberOfRepeatsAllowed value="3"/>
                <expectedSupplyDuration>
                   <value value="30.0"/>
                   <unit value="d"/>
                </expectedSupplyDuration>
             </dispenseRequest>
          </MedicationRequest>
      </resource>
      <request>
         <method value="PUT"/>
         <url value="MedicationRequest/example-rec-11-benzo-trigger-with-opioid-prefetch"/>
      </request>
   </entry>
</Bundle>
