<Bundle xmlns="http://hl7.org/fhir">
   <id value="example-rec-11-opioid-trigger-with-benzo"></id>
   <type value="transaction"></type>
   <entry>
      <fullUrl value="http://localhost:8080/cqf-ruler-r4/fhir/Patient/example-rec-11-opioid-trigger-with-benzo"></fullUrl>
      <resource>
         <Patient xmlns="http://hl7.org/fhir">
            <id value="example-rec-11-opioid-trigger-with-benzo"></id>
            <extension url="http://fhir.org/guides/cdc/opioid-cds/StructureDefinition/dataDateRoller">
               <extension url="dateLastUpdated">
                  <valueDateTime value="2022-08-03"></valueDateTime>
               </extension>
               <extension url="frequency">
                  <valueDuration>
                     <value value="30.0"></value>
                     <unit value="days"></unit>
                     <system value="http://unitsofmeasure.org"></system>
                     <code value="d"></code>
                  </valueDuration>
               </extension>
            </extension>
            <name>
               <family value="example-rec-10"></family>
               <given value="opioid-trigger-with-benzo"></given>
            </name>
            <gender value="female"></gender>
            <birthDate value="1982-04-14"></birthDate>
         </Patient>
      </resource>
      <request>
         <method value="PUT"></method>
         <url value="Patient/example-rec-11-opioid-trigger-with-benzo"></url>
      </request>
   </entry>
   <entry>
      <fullUrl value="http://localhost:8080/cqf-ruler-r4/fhir/Encounter/example-rec-11-opioid-trigger-with-benzo-prefetch"></fullUrl>
      <resource>
         <Encounter xmlns="http://hl7.org/fhir">
            <id value="example-rec-11-opioid-trigger-with-benzo-prefetch"></id>
            <extension url="http://fhir.org/guides/cdc/opioid-cds/StructureDefinition/dataDateRoller">
               <extension url="dateLastUpdated">
                  <valueDateTime value="2022-08-03"></valueDateTime>
               </extension>
               <extension url="frequency">
                  <valueDuration>
                     <value value="30.0"></value>
                     <unit value="days"></unit>
                     <system value="http://unitsofmeasure.org"></system>
                     <code value="d"></code>
                  </valueDuration>
               </extension>
            </extension>
            <status value="finished"></status>
            <class>
               <system value="http://terminology.hl7.org/CodeSystem/v3-ActCode"></system>
               <code value="AMB"></code>
               <display value="ambulatory"></display>
            </class>
            <subject>
               <reference value="Patient/example-rec-11-opioid-trigger-with-benzo"></reference>
            </subject>
            <period>
               <start value="2022-07-06"></start>
               <end value="2022-07-06"></end>
            </period>
         </Encounter>
      </resource>
      <request>
         <method value="PUT"></method>
         <url value="Encounter/example-rec-11-opioid-trigger-with-benzo-prefetch"></url>
      </request>
   </entry>
   <entry>
      <fullUrl value="http://localhost:8080/cqf-ruler-r4/fhir/MedicationRequest/example-rec-11-opioid-trigger-with-benzo-prefetch"></fullUrl>
      <resource>
         <MedicationRequest xmlns="http://hl7.org/fhir">
            <id value="example-rec-11-opioid-trigger-with-benzo-prefetch"></id>
            <extension url="http://fhir.org/guides/cdc/opioid-cds/StructureDefinition/dataDateRoller">
               <extension url="dateLastUpdated">
                  <valueDateTime value="2022-08-03"></valueDateTime>
               </extension>
               <extension url="frequency">
                  <valueDuration>
                     <value value="30.0"></value>
                     <unit value="days"></unit>
                     <system value="http://unitsofmeasure.org"></system>
                     <code value="d"></code>
                  </valueDuration>
               </extension>
            </extension>
            <status value="active"></status>
            <intent value="order"></intent>
            <category>
               <coding>
                  <system value="http://terminology.hl7.org/CodeSystem/medicationrequest-category"></system>
                  <code value="outpatient"></code>
               </coding>
            </category>
            <medicationCodeableConcept>
               <coding>
                  <system value="http://www.nlm.nih.gov/research/umls/rxnorm"></system>
                  <code value="1298088"></code>
                  <display value="flurazepam HCl 15 MG Oral Capsule"></display>
               </coding>
            </medicationCodeableConcept>
            <subject>
               <reference value="Patient/example-rec-11-opioid-trigger-with-benzo"></reference>
            </subject>
            <encounter>
               <reference value="Encounter/example-rec-11-opioid-trigger-with-benzo-prefetch"></reference>
            </encounter>
            <authoredOn value="2022-07-06"></authoredOn>
            <dosageInstruction>
               <timing>
                  <repeat>
                     <frequency value="1"></frequency>
                     <period value="1.0"></period>
                     <periodUnit value="d"></periodUnit>
                  </repeat>
               </timing>
               <asNeededBoolean value="false"></asNeededBoolean>
               <doseAndRate>
                  <doseQuantity>
                     <value value="1.0"></value>
                     <unit value="capsule"></unit>
                  </doseQuantity>
               </doseAndRate>
            </dosageInstruction>
            <dispenseRequest>
               <validityPeriod>
                  <start value="2022-07-06T00:00:00-06:00"></start>
                  <end value="2022-11-02T00:00:00-06:00"></end>
               </validityPeriod>
               <numberOfRepeatsAllowed value="3"></numberOfRepeatsAllowed>
               <expectedSupplyDuration>
                  <value value="30.0"></value>
                  <unit value="d"></unit>
               </expectedSupplyDuration>
            </dispenseRequest>
         </MedicationRequest>
      </resource>
      <request>
         <method value="PUT"></method>
         <url value="MedicationRequest/example-rec-11-opioid-trigger-with-benzo-prefetch"></url>
      </request>
   </entry>
</Bundle>