<Bundle xmlns="http://hl7.org/fhir">
   <id value="example-rec-10-unprescribed-opioids"/>
   <type value="transaction"/>
   <entry>
      <fullUrl value="http://measure.eval.kanvix.com/cqf-ruler/baseDstu3/Patient/example-rec-10-unprescribed-opioids"/>
      <resource>
          <Patient xmlns="http://hl7.org/fhir">
             <id value="example-rec-10-unprescribed-opioids"/>
             <name>
                 <family value="example-rec-10"/>
                 <given value="unprescribed-opioids"/>
             </name>
             <gender value="female"/>
             <birthDate value="1982-01-07"/>
          </Patient>
      </resource>
      <request>
         <method value="PUT"/>
         <url value="Patient/example-rec-10-unprescribed-opioids"/>
      </request>
   </entry>
   <entry>
      <fullUrl value="http://measure.eval.kanvix.com/cqf-ruler/baseDstu3/Encounter/example-rec-10-unprescribed-opioids-prefetch"/>
      <resource>
          <Encounter xmlns="http://hl7.org/fhir">
             <id value="example-rec-10-unprescribed-opioids-prefetch"/>
             <status value="finished"/>
             <class>
                 <system value="http://terminology.hl7.org/CodeSystem/v3-ActCode"/>
                 <code value="AMB"/>
                 <display value="ambulatory"/>
             </class>
             <subject>
                <reference value="Patient/example-rec-10-unprescribed-opioids"/>
             </subject>
             <period>
                <extension url="http://hl7.org/fhir/StructureDefinition/cqf-expression">
                   <valueExpression>
                      <language value="text/cql"/>
                      <expression value="FHIR.Period { start: FHIR.dateTime { value: Today() - 90 days }, end: FHIR.dateTime { value: Today() - 90 days } }"/>
                   </valueExpression>
                </extension>
             </period>
          </Encounter>
      </resource>
      <request>
         <method value="PUT"/>
         <url value="Encounter/example-rec-10-unprescribed-opioids-prefetch"/>
      </request>
   </entry>
   <entry>
      <fullUrl value="http://measure.eval.kanvix.com/cqf-ruler/baseDstu3/MedicationRequest/example-rec-10-unprescribed-opioids-prefetch"/>
      <resource>
          <MedicationRequest xmlns="http://hl7.org/fhir">
             <id value="example-rec-10-unprescribed-opioids-prefetch"/>
             <status value="active"/>
             <intent value="order"/>
             <category>
                <coding>
                   <code value="outpatient"/>
                </coding>
             </category>
             <medicationCodeableConcept>
                <coding>
                   <system value="http://www.nlm.nih.gov/research/umls/rxnorm"/>
                   <code value="1049502"/>
                   <display value="oxyCODONE HCl 10 MG 12HR Extended Release Oral Tablet"/>
                </coding>
             </medicationCodeableConcept>
             <subject>
                <reference value="Patient/example-rec-10-unprescribed-opioids"/>
             </subject>
             <encounter>
                <reference value="Encounter/example-rec-10-unprescribed-opioids-prefetch"/>
             </encounter>
             <authoredOn>
                 <extension url="http://hl7.org/fhir/StructureDefinition/cqf-expression">
                     <valueExpression>
                         <language value="text/cql"/>
                         <expression value="Today() - 90 days"/>
                     </valueExpression>
                </extension>
             </authoredOn>
             <dosageInstruction>
                <timing>
                   <repeat>
                      <frequency value="3"/>
                      <period value="1.0"/>
                      <periodUnit value="d"/>
                   </repeat>
                </timing>
                <asNeededBoolean value="false"/>
                <doseAndRate>
                    <doseQuantity>
                       <value value="1.0"/>
                       <unit value="tablet"/>
                    </doseQuantity>
                </doseAndRate>
             </dosageInstruction>
             <dispenseRequest>
                <validityPeriod>
                   <extension url="http://hl7.org/fhir/StructureDefinition/cqf-expression">
                      <valueExpression>
                          <language value="text/cql"/>
                          <expression value="FHIR.Period { start: FHIR.dateTime { value: Today() - 90 days }, end: FHIR.dateTime { value: Today() } }"/>
                      </valueExpression>
                  </extension>
                </validityPeriod>
                <numberOfRepeatsAllowed value="3"/>
                <expectedSupplyDuration>
                   <value value="27.0"/>
                   <unit value="d"/>
                </expectedSupplyDuration>
             </dispenseRequest>
          </MedicationRequest>
      </resource>
      <request>
         <method value="PUT"/>
         <url value="MedicationRequest/example-rec-10-unprescribed-opioids-prefetch"/>
      </request>
   </entry>
   <entry>
      <fullUrl value="http://measure.eval.kanvix.com/cqf-ruler/baseDstu3/Observation/example-rec-10-unprescribed-opioids-prefetch-codeine"/>
      <resource>
          <Observation xmlns="http://hl7.org/fhir">
             <id value="example-rec-10-unprescribed-opioids-prefetch-codeine"/>
             <status value="final"/>
             <code>
                <coding>
                   <system value="http://loinc.org"/>
                   <code value="3507-1"/>
                   <display value="Codeine [Presence] in Urine"/>
                </coding>
             </code>
             <subject>
                <reference value="Patient/example-rec-10-unprescribed-opioids"/>
             </subject>
             <effectiveDateTime>
                <extension url="http://hl7.org/fhir/StructureDefinition/cqf-expression">
                      <valueExpression>
                          <language value="text/cql"/>
                          <expression value="Today() - 3 weeks"/>
                      </valueExpression>
                  </extension>
             </effectiveDateTime>
             <interpretation>
                <coding>
                   <code value="POS"/>
                </coding>
             </interpretation>
          </Observation>
      </resource>
      <request>
         <method value="PUT"/>
         <url value="Observation/example-rec-10-unprescribed-opioids-prefetch-codeine"/>
      </request>
   </entry>
   <entry>
      <fullUrl value="http://measure.eval.kanvix.com/cqf-ruler/baseDstu3/Observation/example-rec-10-unprescribed-opioids-prefetch-oxycodone"/>
      <resource>
          <Observation xmlns="http://hl7.org/fhir">
             <id value="example-rec-10-unprescribed-opioids-prefetch-oxycodone"/>
             <status value="final"/>
             <code>
                <coding>
                   <system value="http://loinc.org"/>
                   <code value="10998-3"/>
                   <display value="Oxycodone [Presence] in Urine"/>
                </coding>
             </code>
             <subject>
                <reference value="Patient/example-rec-10-unprescribed-opioids"/>
             </subject>
             <effectiveDateTime>
                <extension url="http://hl7.org/fhir/StructureDefinition/cqf-expression">
                      <valueExpression>
                          <language value="text/cql"/>
                          <expression value="Today() - 4 weeks"/>
                      </valueExpression>
                  </extension>
             </effectiveDateTime>
             <interpretation>
                <coding>
                   <code value="POS"/>
                </coding>
             </interpretation>
          </Observation>
      </resource>
      <request>
         <method value="PUT"/>
         <url value="Observation/example-rec-10-unprescribed-opioids-prefetch-oxycodone"/>
      </request>
   </entry>
</Bundle>
